onset	duration	sample	value	event_code	user_answer	correct_answer	target_count
0	n/a	0	break cnt	break cnt	n/a	n/a	8
26.504	n/a	13252	seqLearning_start	91	n/a	n/a	8
32.768	n/a	16384	learningBlock_1	31	n/a	n/a	8
32.786	n/a	16393	dot_no1_ON	11	n/a	n/a	8
33.374	n/a	16687	dot_no1_OFF	21	n/a	n/a	8
34.694	n/a	17347	dot_no6_ON	16	n/a	n/a	8
35.274	n/a	17637	dot_no6_OFF	26	n/a	n/a	8
36.594	n/a	18297	dot_no4_ON	14	n/a	n/a	8
37.174	n/a	18587	dot_no4_OFF	24	n/a	n/a	8
38.494	n/a	19247	dot_no2_ON	12	n/a	n/a	8
39.074	n/a	19537	dot_no2_OFF	22	n/a	n/a	8
40.394	n/a	20197	dot_no7_ON	17	n/a	n/a	8
40.984	n/a	20492	dot_no7_OFF	27	n/a	n/a	8
42.304	n/a	21152	dot_no3_ON	13	n/a	n/a	8
42.884	n/a	21442	dot_no3_OFF	23	n/a	n/a	8
44.204	n/a	22102	dot_no8_ON	18	n/a	n/a	8
44.784	n/a	22392	dot_no8_OFF	28	n/a	n/a	8
46.104	n/a	23052	dot_no5_ON	15	n/a	n/a	8
46.684	n/a	23342	dot_no5_OFF	25	n/a	n/a	8
48.004	n/a	24002	dot_no2_ON	12	n/a	n/a	8
48.584	n/a	24292	dot_no2_OFF	22	n/a	n/a	8
49.904	n/a	24952	dot_no7_ON	17	n/a	n/a	8
50.484	n/a	25242	dot_no7_OFF	27	1-6-8-4-3-5-7-2-7-4	1-6-4-2-7-3-8-5-2-7	8
83.028	n/a	41514	learningBlock_2	32	n/a	n/a	8
83.036	n/a	41518	dot_no1_ON	11	n/a	n/a	8
83.616	n/a	41808	dot_no1_OFF	21	n/a	n/a	8
84.936	n/a	42468	dot_no6_ON	16	n/a	n/a	8
85.516	n/a	42758	dot_no6_OFF	26	n/a	n/a	8
86.846	n/a	43423	dot_no4_ON	14	n/a	n/a	8
87.426	n/a	43713	dot_no4_OFF	24	n/a	n/a	8
88.746	n/a	44373	dot_no2_ON	12	n/a	n/a	8
89.326	n/a	44663	dot_no2_OFF	22	n/a	n/a	8
90.646	n/a	45323	dot_no7_ON	17	n/a	n/a	8
91.226	n/a	45613	dot_no7_OFF	27	n/a	n/a	8
92.546	n/a	46273	dot_no3_ON	13	n/a	n/a	8
93.126	n/a	46563	dot_no3_OFF	23	n/a	n/a	8
94.446	n/a	47223	dot_no8_ON	18	n/a	n/a	8
95.026	n/a	47513	dot_no8_OFF	28	n/a	n/a	8
96.346	n/a	48173	dot_no5_ON	15	n/a	n/a	8
96.926	n/a	48463	dot_no5_OFF	25	n/a	n/a	8
98.246	n/a	49123	dot_no2_ON	12	n/a	n/a	8
98.826	n/a	49413	dot_no2_OFF	22	n/a	n/a	8
100.146	n/a	50073	dot_no7_ON	17	n/a	n/a	8
100.726	n/a	50363	dot_no7_OFF	27	1-8-5-3-2-7-6-4-1-5	1-6-4-2-7-3-8-5-2-7	8
121.728	n/a	60864	learningBlock_3	33	n/a	n/a	8
121.736	n/a	60868	dot_no1_ON	11	n/a	n/a	8
122.326	n/a	61163	dot_no1_OFF	21	n/a	n/a	8
123.646	n/a	61823	dot_no6_ON	16	n/a	n/a	8
124.226	n/a	62113	dot_no6_OFF	26	n/a	n/a	8
125.546	n/a	62773	dot_no4_ON	14	n/a	n/a	8
126.126	n/a	63063	dot_no4_OFF	24	n/a	n/a	8
127.446	n/a	63723	dot_no2_ON	12	n/a	n/a	8
128.026	n/a	64013	dot_no2_OFF	22	n/a	n/a	8
129.346	n/a	64673	dot_no7_ON	17	n/a	n/a	8
129.926	n/a	64963	dot_no7_OFF	27	n/a	n/a	8
131.246	n/a	65623	dot_no3_ON	13	n/a	n/a	8
131.826	n/a	65913	dot_no3_OFF	23	n/a	n/a	8
133.146	n/a	66573	dot_no8_ON	18	n/a	n/a	8
133.726	n/a	66863	dot_no8_OFF	28	n/a	n/a	8
135.046	n/a	67523	dot_no5_ON	15	n/a	n/a	8
135.626	n/a	67813	dot_no5_OFF	25	n/a	n/a	8
136.946	n/a	68473	dot_no2_ON	12	n/a	n/a	8
137.526	n/a	68763	dot_no2_OFF	22	n/a	n/a	8
138.846	n/a	69423	dot_no7_ON	17	n/a	n/a	8
139.426	n/a	69713	dot_no7_OFF	27	1-6-4-3-2-8-5-2-2-5	1-6-4-2-7-3-8-5-2-7	8
163.54	n/a	81770	learningBlock_4	34	n/a	n/a	8
163.546	n/a	81773	dot_no1_ON	11	n/a	n/a	8
164.128	n/a	82064	dot_no1_OFF	21	n/a	n/a	8
165.448	n/a	82724	dot_no6_ON	16	n/a	n/a	8
166.028	n/a	83014	dot_no6_OFF	26	n/a	n/a	8
167.348	n/a	83674	dot_no4_ON	14	n/a	n/a	8
167.928	n/a	83964	dot_no4_OFF	24	n/a	n/a	8
169.248	n/a	84624	dot_no2_ON	12	n/a	n/a	8
169.828	n/a	84914	dot_no2_OFF	22	n/a	n/a	8
171.148	n/a	85574	dot_no7_ON	17	n/a	n/a	8
171.728	n/a	85864	dot_no7_OFF	27	n/a	n/a	8
173.048	n/a	86524	dot_no3_ON	13	n/a	n/a	8
173.628	n/a	86814	dot_no3_OFF	23	n/a	n/a	8
174.948	n/a	87474	dot_no8_ON	18	n/a	n/a	8
175.528	n/a	87764	dot_no8_OFF	28	n/a	n/a	8
176.848	n/a	88424	dot_no5_ON	15	n/a	n/a	8
177.438	n/a	88719	dot_no5_OFF	25	n/a	n/a	8
178.758	n/a	89379	dot_no2_ON	12	n/a	n/a	8
179.338	n/a	89669	dot_no2_OFF	22	n/a	n/a	8
180.658	n/a	90329	dot_no7_ON	17	n/a	n/a	8
181.248	n/a	90624	dot_no7_OFF	27	1-6-4-3-8-5-2-7-2-5	1-6-4-2-7-3-8-5-2-7	8
201.05	n/a	100525	learningBlock_5	35	n/a	n/a	8
201.058	n/a	100529	dot_no1_ON	11	n/a	n/a	8
201.638	n/a	100819	dot_no1_OFF	21	n/a	n/a	8
202.958	n/a	101479	dot_no6_ON	16	n/a	n/a	8
203.538	n/a	101769	dot_no6_OFF	26	n/a	n/a	8
204.858	n/a	102429	dot_no4_ON	14	n/a	n/a	8
205.438	n/a	102719	dot_no4_OFF	24	n/a	n/a	8
206.758	n/a	103379	dot_no2_ON	12	n/a	n/a	8
207.348	n/a	103674	dot_no2_OFF	22	n/a	n/a	8
208.668	n/a	104334	dot_no7_ON	17	n/a	n/a	8
209.248	n/a	104624	dot_no7_OFF	27	n/a	n/a	8
210.568	n/a	105284	dot_no3_ON	13	n/a	n/a	8
211.148	n/a	105574	dot_no3_OFF	23	n/a	n/a	8
212.468	n/a	106234	dot_no8_ON	18	n/a	n/a	8
213.048	n/a	106524	dot_no8_OFF	28	n/a	n/a	8
214.368	n/a	107184	dot_no5_ON	15	n/a	n/a	8
214.948	n/a	107474	dot_no5_OFF	25	n/a	n/a	8
216.268	n/a	108134	dot_no2_ON	12	n/a	n/a	8
216.848	n/a	108424	dot_no2_OFF	22	n/a	n/a	8
218.168	n/a	109084	dot_no7_ON	17	n/a	n/a	8
218.758	n/a	109379	dot_no7_OFF	27	1-6-4-3-5-8-7-2-5-4	1-6-4-2-7-3-8-5-2-7	8
234.002	n/a	117001	seqLearning_stop	50	n/a	n/a	8
236.125	n/a	118062.5	boundary	boundary	n/a	n/a	8
