onset	duration	sample	value	event_code	user_answer	correct_answer	target_count
0	n/a	0	break cnt	break cnt	n/a	n/a	6
27.404	n/a	13702	seqLearning_start	91	n/a	n/a	6
33.672	n/a	16836	learningBlock_1	31	n/a	n/a	6
33.704	n/a	16852	dot_no1_ON	11	n/a	n/a	6
34.292	n/a	17146	dot_no1_OFF	21	n/a	n/a	6
35.612	n/a	17806	dot_no6_ON	16	n/a	n/a	6
36.192	n/a	18096	dot_no6_OFF	26	n/a	n/a	6
37.512	n/a	18756	dot_no4_ON	14	n/a	n/a	6
38.092	n/a	19046	dot_no4_OFF	24	n/a	n/a	6
39.412	n/a	19706	dot_no2_ON	12	n/a	n/a	6
39.992	n/a	19996	dot_no2_OFF	22	n/a	n/a	6
41.312	n/a	20656	dot_no3_ON	13	n/a	n/a	6
41.892	n/a	20946	dot_no3_OFF	23	n/a	n/a	6
43.212	n/a	21606	dot_no5_ON	15	n/a	n/a	6
43.792	n/a	21896	dot_no5_OFF	25	n/a	n/a	6
45.112	n/a	22556	dot_no2_ON	12	n/a	n/a	6
45.692	n/a	22846	dot_no2_OFF	22	1-4-2-6-3-5-3	1-6-4-2-3-5-2	6
99.672	n/a	49836	learningBlock_2	32	n/a	n/a	6
99.68	n/a	49840	dot_no1_ON	11	n/a	n/a	6
100.26	n/a	50130	dot_no1_OFF	21	n/a	n/a	6
101.58	n/a	50790	dot_no6_ON	16	n/a	n/a	6
102.16	n/a	51080	dot_no6_OFF	26	n/a	n/a	6
103.48	n/a	51740	dot_no4_ON	14	n/a	n/a	6
104.06	n/a	52030	dot_no4_OFF	24	n/a	n/a	6
105.38	n/a	52690	dot_no2_ON	12	n/a	n/a	6
105.96	n/a	52980	dot_no2_OFF	22	n/a	n/a	6
107.28	n/a	53640	dot_no3_ON	13	n/a	n/a	6
107.86	n/a	53930	dot_no3_OFF	23	n/a	n/a	6
109.18	n/a	54590	dot_no5_ON	15	n/a	n/a	6
109.76	n/a	54880	dot_no5_OFF	25	n/a	n/a	6
111.08	n/a	55540	dot_no2_ON	12	n/a	n/a	6
111.66	n/a	55830	dot_no2_OFF	22	4-5-3-1-6-2-2	1-6-4-2-3-5-2	6
153.952	n/a	76976	learningBlock_3	33	n/a	n/a	6
153.96	n/a	76980	dot_no1_ON	11	n/a	n/a	6
154.54	n/a	77270	dot_no1_OFF	21	n/a	n/a	6
155.86	n/a	77930	dot_no6_ON	16	n/a	n/a	6
156.44	n/a	78220	dot_no6_OFF	26	n/a	n/a	6
157.76	n/a	78880	dot_no4_ON	14	n/a	n/a	6
158.34	n/a	79170	dot_no4_OFF	24	n/a	n/a	6
159.66	n/a	79830	dot_no2_ON	12	n/a	n/a	6
160.24	n/a	80120	dot_no2_OFF	22	n/a	n/a	6
161.56	n/a	80780	dot_no3_ON	13	n/a	n/a	6
162.14	n/a	81070	dot_no3_OFF	23	n/a	n/a	6
163.46	n/a	81730	dot_no5_ON	15	n/a	n/a	6
164.05	n/a	82025	dot_no5_OFF	25	n/a	n/a	6
165.37	n/a	82685	dot_no2_ON	12	n/a	n/a	6
165.95	n/a	82975	dot_no2_OFF	22	1-6-4-3-2-5-2	1-6-4-2-3-5-2	6
197.76	n/a	98880	learningBlock_4	34	n/a	n/a	6
197.768	n/a	98884	dot_no1_ON	11	n/a	n/a	6
198.348	n/a	99174	dot_no1_OFF	21	n/a	n/a	6
199.668	n/a	99834	dot_no6_ON	16	n/a	n/a	6
200.248	n/a	100124	dot_no6_OFF	26	n/a	n/a	6
201.568	n/a	100784	dot_no4_ON	14	n/a	n/a	6
202.148	n/a	101074	dot_no4_OFF	24	n/a	n/a	6
203.468	n/a	101734	dot_no2_ON	12	n/a	n/a	6
204.048	n/a	102024	dot_no2_OFF	22	n/a	n/a	6
205.368	n/a	102684	dot_no3_ON	13	n/a	n/a	6
205.958	n/a	102979	dot_no3_OFF	23	n/a	n/a	6
207.278	n/a	103639	dot_no5_ON	15	n/a	n/a	6
207.858	n/a	103929	dot_no5_OFF	25	n/a	n/a	6
209.178	n/a	104589	dot_no2_ON	12	n/a	n/a	6
209.758	n/a	104879	dot_no2_OFF	22	1-6-5-4-3-2-2	1-6-4-2-3-5-2	6
240.02	n/a	120010	learningBlock_5	35	n/a	n/a	6
240.028	n/a	120014	dot_no1_ON	11	n/a	n/a	6
240.608	n/a	120304	dot_no1_OFF	21	n/a	n/a	6
241.928	n/a	120964	dot_no6_ON	16	n/a	n/a	6
242.508	n/a	121254	dot_no6_OFF	26	n/a	n/a	6
243.828	n/a	121914	dot_no4_ON	14	n/a	n/a	6
244.408	n/a	122204	dot_no4_OFF	24	n/a	n/a	6
245.738	n/a	122869	dot_no2_ON	12	n/a	n/a	6
246.318	n/a	123159	dot_no2_OFF	22	n/a	n/a	6
247.638	n/a	123819	dot_no3_ON	13	n/a	n/a	6
248.218	n/a	124109	dot_no3_OFF	23	n/a	n/a	6
249.538	n/a	124769	dot_no5_ON	15	n/a	n/a	6
250.118	n/a	125059	dot_no5_OFF	25	n/a	n/a	6
251.438	n/a	125719	dot_no2_ON	12	n/a	n/a	6
252.028	n/a	126014	dot_no2_OFF	22	1-6-5-4-3-2-2	1-6-4-2-3-5-2	6
278.13	n/a	139065	seqLearning_stop	50	n/a	n/a	6
280.379	n/a	140189.5	boundary	boundary	n/a	n/a	6
