onset	duration	sample	value	event_code	user_answer	correct_answer	target_count
0	n/a	0	break cnt	break cnt	n/a	n/a	8
146.806	n/a	73403	seqLearning_start	91	n/a	n/a	8
153.09	n/a	76545	learningBlock_1	31	n/a	n/a	8
153.118	n/a	76559	dot_no1_ON	11	n/a	n/a	8
153.706	n/a	76853	dot_no1_OFF	21	n/a	n/a	8
155.026	n/a	77513	dot_no6_ON	16	n/a	n/a	8
155.606	n/a	77803	dot_no6_OFF	26	n/a	n/a	8
156.926	n/a	78463	dot_no4_ON	14	n/a	n/a	8
157.506	n/a	78753	dot_no4_OFF	24	n/a	n/a	8
158.826	n/a	79413	dot_no2_ON	12	n/a	n/a	8
159.416	n/a	79708	dot_no2_OFF	22	n/a	n/a	8
160.736	n/a	80368	dot_no7_ON	17	n/a	n/a	8
161.316	n/a	80658	dot_no7_OFF	27	n/a	n/a	8
162.636	n/a	81318	dot_no3_ON	13	n/a	n/a	8
163.216	n/a	81608	dot_no3_OFF	23	n/a	n/a	8
164.536	n/a	82268	dot_no8_ON	18	n/a	n/a	8
165.116	n/a	82558	dot_no8_OFF	28	n/a	n/a	8
166.436	n/a	83218	dot_no5_ON	15	n/a	n/a	8
167.016	n/a	83508	dot_no5_OFF	25	n/a	n/a	8
168.338	n/a	84169	dot_no2_ON	12	n/a	n/a	8
168.916	n/a	84458	dot_no2_OFF	22	n/a	n/a	8
170.236	n/a	85118	dot_no7_ON	17	n/a	n/a	8
170.816	n/a	85408	dot_no7_OFF	27	1-6-7-3-3-4-8-2-5-5	1-6-4-2-7-3-8-5-2-7	8
214.52	n/a	107260	learningBlock_2	32	n/a	n/a	8
214.528	n/a	107264	dot_no1_ON	11	n/a	n/a	8
215.108	n/a	107554	dot_no1_OFF	21	n/a	n/a	8
216.428	n/a	108214	dot_no6_ON	16	n/a	n/a	8
217.008	n/a	108504	dot_no6_OFF	26	n/a	n/a	8
218.328	n/a	109164	dot_no4_ON	14	n/a	n/a	8
218.918	n/a	109459	dot_no4_OFF	24	n/a	n/a	8
220.238	n/a	110119	dot_no2_ON	12	n/a	n/a	8
220.818	n/a	110409	dot_no2_OFF	22	n/a	n/a	8
222.138	n/a	111069	dot_no7_ON	17	n/a	n/a	8
222.718	n/a	111359	dot_no7_OFF	27	n/a	n/a	8
224.038	n/a	112019	dot_no3_ON	13	n/a	n/a	8
224.618	n/a	112309	dot_no3_OFF	23	n/a	n/a	8
225.938	n/a	112969	dot_no8_ON	18	n/a	n/a	8
226.518	n/a	113259	dot_no8_OFF	28	n/a	n/a	8
227.838	n/a	113919	dot_no5_ON	15	n/a	n/a	8
228.418	n/a	114209	dot_no5_OFF	25	n/a	n/a	8
229.738	n/a	114869	dot_no2_ON	12	n/a	n/a	8
230.318	n/a	115159	dot_no2_OFF	22	n/a	n/a	8
231.638	n/a	115819	dot_no7_ON	17	n/a	n/a	8
232.218	n/a	116109	dot_no7_OFF	27	2-2-3-3-4-5-6-7-8-8	1-6-4-2-7-3-8-5-2-7	8
253.06	n/a	126530	learningBlock_3	33	n/a	n/a	8
253.068	n/a	126534	dot_no1_ON	11	n/a	n/a	8
253.648	n/a	126824	dot_no1_OFF	21	n/a	n/a	8
254.968	n/a	127484	dot_no6_ON	16	n/a	n/a	8
255.548	n/a	127774	dot_no6_OFF	26	n/a	n/a	8
256.868	n/a	128434	dot_no4_ON	14	n/a	n/a	8
257.448	n/a	128724	dot_no4_OFF	24	n/a	n/a	8
258.768	n/a	129384	dot_no2_ON	12	n/a	n/a	8
259.348	n/a	129674	dot_no2_OFF	22	n/a	n/a	8
260.668	n/a	130334	dot_no7_ON	17	n/a	n/a	8
261.248	n/a	130624	dot_no7_OFF	27	n/a	n/a	8
262.568	n/a	131284	dot_no3_ON	13	n/a	n/a	8
263.148	n/a	131574	dot_no3_OFF	23	n/a	n/a	8
264.468	n/a	132234	dot_no8_ON	18	n/a	n/a	8
265.048	n/a	132524	dot_no8_OFF	28	n/a	n/a	8
266.368	n/a	133184	dot_no5_ON	15	n/a	n/a	8
266.948	n/a	133474	dot_no5_OFF	25	n/a	n/a	8
268.268	n/a	134134	dot_no2_ON	12	n/a	n/a	8
268.848	n/a	134424	dot_no2_OFF	22	n/a	n/a	8
270.178	n/a	135089	dot_no7_ON	17	n/a	n/a	8
270.758	n/a	135379	dot_no7_OFF	27	1-8-8-2-5-6-7-7-3-4	1-6-4-2-7-3-8-5-2-7	8
297.922	n/a	148961	learningBlock_4	34	n/a	n/a	8
297.93	n/a	148965	dot_no1_ON	11	n/a	n/a	8
298.51	n/a	149255	dot_no1_OFF	21	n/a	n/a	8
299.83	n/a	149915	dot_no6_ON	16	n/a	n/a	8
300.41	n/a	150205	dot_no6_OFF	26	n/a	n/a	8
301.73	n/a	150865	dot_no4_ON	14	n/a	n/a	8
302.31	n/a	151155	dot_no4_OFF	24	n/a	n/a	8
303.63	n/a	151815	dot_no2_ON	12	n/a	n/a	8
304.21	n/a	152105	dot_no2_OFF	22	n/a	n/a	8
305.53	n/a	152765	dot_no7_ON	17	n/a	n/a	8
306.11	n/a	153055	dot_no7_OFF	27	n/a	n/a	8
307.43	n/a	153715	dot_no3_ON	13	n/a	n/a	8
308.01	n/a	154005	dot_no3_OFF	23	n/a	n/a	8
309.33	n/a	154665	dot_no8_ON	18	n/a	n/a	8
309.91	n/a	154955	dot_no8_OFF	28	n/a	n/a	8
311.23	n/a	155615	dot_no5_ON	15	n/a	n/a	8
311.82	n/a	155910	dot_no5_OFF	25	n/a	n/a	8
313.14	n/a	156570	dot_no2_ON	12	n/a	n/a	8
313.72	n/a	156860	dot_no2_OFF	22	n/a	n/a	8
315.04	n/a	157520	dot_no7_ON	17	n/a	n/a	8
315.62	n/a	157810	dot_no7_OFF	27	1-8-8-6-5-4-7-7-3-2	1-6-4-2-7-3-8-5-2-7	8
355.492	n/a	177746	learningBlock_5	35	n/a	n/a	8
355.5	n/a	177750	dot_no1_ON	11	n/a	n/a	8
356.09	n/a	178045	dot_no1_OFF	21	n/a	n/a	8
357.41	n/a	178705	dot_no6_ON	16	n/a	n/a	8
357.99	n/a	178995	dot_no6_OFF	26	n/a	n/a	8
359.31	n/a	179655	dot_no4_ON	14	n/a	n/a	8
359.89	n/a	179945	dot_no4_OFF	24	n/a	n/a	8
361.21	n/a	180605	dot_no2_ON	12	n/a	n/a	8
361.8	n/a	180900	dot_no2_OFF	22	n/a	n/a	8
363.12	n/a	181560	dot_no7_ON	17	n/a	n/a	8
363.7	n/a	181850	dot_no7_OFF	27	n/a	n/a	8
365.02	n/a	182510	dot_no3_ON	13	n/a	n/a	8
365.6	n/a	182800	dot_no3_OFF	23	n/a	n/a	8
366.92	n/a	183460	dot_no8_ON	18	n/a	n/a	8
367.5	n/a	183750	dot_no8_OFF	28	n/a	n/a	8
368.82	n/a	184410	dot_no5_ON	15	n/a	n/a	8
369.4	n/a	184700	dot_no5_OFF	25	n/a	n/a	8
370.72	n/a	185360	dot_no2_ON	12	n/a	n/a	8
371.3	n/a	185650	dot_no2_OFF	22	n/a	n/a	8
372.62	n/a	186310	dot_no7_ON	17	n/a	n/a	8
373.21	n/a	186605	dot_no7_OFF	27	1-5-6-7-4-4-8-8-6-6	1-6-4-2-7-3-8-5-2-7	8
409.202	n/a	204601	seqLearning_stop	50	n/a	n/a	8
411.367	n/a	205683.5	boundary	boundary	n/a	n/a	8
