onset	duration	sample	value	event_code	user_answer	correct_answer	target_count
0	n/a	0	break cnt	break cnt	n/a	n/a	8
31.324	n/a	15662	seqLearning_start	91	n/a	n/a	8
37.608	n/a	18804	learningBlock_1	31	n/a	n/a	8
37.634	n/a	18817	dot_no1_ON	11	n/a	n/a	8
38.224	n/a	19112	dot_no1_OFF	21	n/a	n/a	8
39.542	n/a	19771	dot_no6_ON	16	n/a	n/a	8
40.122	n/a	20061	dot_no6_OFF	26	n/a	n/a	8
41.442	n/a	20721	dot_no4_ON	14	n/a	n/a	8
42.022	n/a	21011	dot_no4_OFF	24	n/a	n/a	8
43.342	n/a	21671	dot_no2_ON	12	n/a	n/a	8
43.922	n/a	21961	dot_no2_OFF	22	n/a	n/a	8
45.242	n/a	22621	dot_no7_ON	17	n/a	n/a	8
45.822	n/a	22911	dot_no7_OFF	27	n/a	n/a	8
47.142	n/a	23571	dot_no3_ON	13	n/a	n/a	8
47.722	n/a	23861	dot_no3_OFF	23	n/a	n/a	8
49.042	n/a	24521	dot_no8_ON	18	n/a	n/a	8
49.622	n/a	24811	dot_no8_OFF	28	n/a	n/a	8
50.942	n/a	25471	dot_no5_ON	15	n/a	n/a	8
51.522	n/a	25761	dot_no5_OFF	25	n/a	n/a	8
52.842	n/a	26421	dot_no2_ON	12	n/a	n/a	8
53.422	n/a	26711	dot_no2_OFF	22	n/a	n/a	8
54.742	n/a	27371	dot_no7_ON	17	n/a	n/a	8
55.322	n/a	27661	dot_no7_OFF	27	6-4-1-5-3-7-2-8-7-3	1-6-4-2-7-3-8-5-2-7	8
99.204	n/a	49602	learningBlock_2	32	n/a	n/a	8
99.212	n/a	49606	dot_no1_ON	11	n/a	n/a	8
99.792	n/a	49896	dot_no1_OFF	21	n/a	n/a	8
101.112	n/a	50556	dot_no6_ON	16	n/a	n/a	8
101.692	n/a	50846	dot_no6_OFF	26	n/a	n/a	8
103.012	n/a	51506	dot_no4_ON	14	n/a	n/a	8
103.592	n/a	51796	dot_no4_OFF	24	n/a	n/a	8
104.912	n/a	52456	dot_no2_ON	12	n/a	n/a	8
105.492	n/a	52746	dot_no2_OFF	22	n/a	n/a	8
106.812	n/a	53406	dot_no7_ON	17	n/a	n/a	8
107.392	n/a	53696	dot_no7_OFF	27	n/a	n/a	8
108.712	n/a	54356	dot_no3_ON	13	n/a	n/a	8
109.292	n/a	54646	dot_no3_OFF	23	n/a	n/a	8
110.612	n/a	55306	dot_no8_ON	18	n/a	n/a	8
111.192	n/a	55596	dot_no8_OFF	28	n/a	n/a	8
112.512	n/a	56256	dot_no5_ON	15	n/a	n/a	8
113.092	n/a	56546	dot_no5_OFF	25	n/a	n/a	8
114.412	n/a	57206	dot_no2_ON	12	n/a	n/a	8
115.002	n/a	57501	dot_no2_OFF	22	n/a	n/a	8
116.322	n/a	58161	dot_no7_ON	17	n/a	n/a	8
116.902	n/a	58451	dot_no7_OFF	27	1-6-4-7-2-5-7-3-8-2	1-6-4-2-7-3-8-5-2-7	8
146.162	n/a	73081	learningBlock_3	33	n/a	n/a	8
146.17	n/a	73085	dot_no1_ON	11	n/a	n/a	8
146.75	n/a	73375	dot_no1_OFF	21	n/a	n/a	8
148.07	n/a	74035	dot_no6_ON	16	n/a	n/a	8
148.66	n/a	74330	dot_no6_OFF	26	n/a	n/a	8
149.98	n/a	74990	dot_no4_ON	14	n/a	n/a	8
150.56	n/a	75280	dot_no4_OFF	24	n/a	n/a	8
151.88	n/a	75940	dot_no2_ON	12	n/a	n/a	8
152.46	n/a	76230	dot_no2_OFF	22	n/a	n/a	8
153.78	n/a	76890	dot_no7_ON	17	n/a	n/a	8
154.36	n/a	77180	dot_no7_OFF	27	n/a	n/a	8
155.68	n/a	77840	dot_no3_ON	13	n/a	n/a	8
156.26	n/a	78130	dot_no3_OFF	23	n/a	n/a	8
157.582	n/a	78791	dot_no8_ON	18	n/a	n/a	8
158.16	n/a	79080	dot_no8_OFF	28	n/a	n/a	8
159.48	n/a	79740	dot_no5_ON	15	n/a	n/a	8
160.06	n/a	80030	dot_no5_OFF	25	n/a	n/a	8
161.38	n/a	80690	dot_no2_ON	12	n/a	n/a	8
161.96	n/a	80980	dot_no2_OFF	22	n/a	n/a	8
163.28	n/a	81640	dot_no7_ON	17	n/a	n/a	8
163.86	n/a	81930	dot_no7_OFF	27	1-6-4-2-7-3-5-8-3-7	1-6-4-2-7-3-8-5-2-7	8
186.462	n/a	93231	learningBlock_4	34	n/a	n/a	8
186.47	n/a	93235	dot_no1_ON	11	n/a	n/a	8
187.05	n/a	93525	dot_no1_OFF	21	n/a	n/a	8
188.37	n/a	94185	dot_no6_ON	16	n/a	n/a	8
188.95	n/a	94475	dot_no6_OFF	26	n/a	n/a	8
190.27	n/a	95135	dot_no4_ON	14	n/a	n/a	8
190.85	n/a	95425	dot_no4_OFF	24	n/a	n/a	8
192.17	n/a	96085	dot_no2_ON	12	n/a	n/a	8
192.76	n/a	96380	dot_no2_OFF	22	n/a	n/a	8
194.08	n/a	97040	dot_no7_ON	17	n/a	n/a	8
194.66	n/a	97330	dot_no7_OFF	27	n/a	n/a	8
195.98	n/a	97990	dot_no3_ON	13	n/a	n/a	8
196.56	n/a	98280	dot_no3_OFF	23	n/a	n/a	8
197.88	n/a	98940	dot_no8_ON	18	n/a	n/a	8
198.46	n/a	99230	dot_no8_OFF	28	n/a	n/a	8
199.78	n/a	99890	dot_no5_ON	15	n/a	n/a	8
200.37	n/a	100185	dot_no5_OFF	25	n/a	n/a	8
201.69	n/a	100845	dot_no2_ON	12	n/a	n/a	8
202.28	n/a	101140	dot_no2_OFF	22	n/a	n/a	8
203.6	n/a	101800	dot_no7_ON	17	n/a	n/a	8
204.18	n/a	102090	dot_no7_OFF	27	1-6-4-2-7-3-5-8-4-2	1-6-4-2-7-3-8-5-2-7	8
229.622	n/a	114811	learningBlock_5	35	n/a	n/a	8
229.63	n/a	114815	dot_no1_ON	11	n/a	n/a	8
230.21	n/a	115105	dot_no1_OFF	21	n/a	n/a	8
231.53	n/a	115765	dot_no6_ON	16	n/a	n/a	8
232.12	n/a	116060	dot_no6_OFF	26	n/a	n/a	8
233.44	n/a	116720	dot_no4_ON	14	n/a	n/a	8
234.03	n/a	117015	dot_no4_OFF	24	n/a	n/a	8
235.348	n/a	117674	dot_no2_ON	12	n/a	n/a	8
235.93	n/a	117965	dot_no2_OFF	22	n/a	n/a	8
237.248	n/a	118624	dot_no7_ON	17	n/a	n/a	8
237.83	n/a	118915	dot_no7_OFF	27	n/a	n/a	8
239.148	n/a	119574	dot_no3_ON	13	n/a	n/a	8
239.738	n/a	119869	dot_no3_OFF	23	n/a	n/a	8
241.058	n/a	120529	dot_no8_ON	18	n/a	n/a	8
241.638	n/a	120819	dot_no8_OFF	28	n/a	n/a	8
242.958	n/a	121479	dot_no5_ON	15	n/a	n/a	8
243.538	n/a	121769	dot_no5_OFF	25	n/a	n/a	8
244.858	n/a	122429	dot_no2_ON	12	n/a	n/a	8
245.448	n/a	122724	dot_no2_OFF	22	n/a	n/a	8
246.768	n/a	123384	dot_no7_ON	17	n/a	n/a	8
247.358	n/a	123679	dot_no7_OFF	27	1-6-4-7-3-5-5-8-2-5	1-6-4-2-7-3-8-5-2-7	8
288.7	n/a	144350	seqLearning_stop	50	n/a	n/a	8
291.077	n/a	145538.5	boundary	boundary	n/a	n/a	8
