onset	duration	sample	value	event_code	user_answer	correct_answer
0	n/a	0	break cnt	break cnt	n/a	n/a
71.274	n/a	35637	symbolSearch_start	92	n/a	n/a
74.194	n/a	37097	newPage	20	n/a	n/a
83.052	n/a	41526	trialResponse	14	0	0
88.276	n/a	44138	trialResponse	14	1	1
97.55	n/a	48775	trialResponse	14	0	0
105.272	n/a	52636	trialResponse	14	0	0
113.614	n/a	56807	trialResponse	14	0	0
117.166	n/a	58583	trialResponse	14	1	1
124.406	n/a	62203	trialResponse	14	0	0
133.112	n/a	66556	trialResponse	14	1	1
141.046	n/a	70523	trialResponse	14	0	0
149.52	n/a	74760	trialResponse	14	0	0
161.256	n/a	80628	trialResponse	14	1	0
170.696	n/a	85348	trialResponse	14	1	1
174.056	n/a	87028	trialResponse	14	0	0
181.12	n/a	90560	trialResponse	14	1	1
187.214	n/a	93607	trialResponse	14	1	1
188.08	n/a	94040	newPage	20	n/a	n/a
196.718	n/a	98359	trialResponse	14	1	1
196.73	n/a	98365	newPage	20	n/a	n/a
200.836	n/a	100418	break cnt	break cnt	n/a	n/a
239.248	n/a	119624	9999	9999	n/a	n/a
241.274	n/a	120637	video_start	83	n/a	n/a
411.828	n/a	205914	video_stop	103	n/a	n/a
412.466	n/a	206233	break cnt	break cnt	n/a	n/a
507.954	n/a	253977	9999	9999	n/a	n/a
