onset	duration	sample	value	event_code	user_answer	correct_answer	target_count
0	n/a	0	break cnt	break cnt	n/a	n/a	8
63.794	n/a	31897	seqLearning_start	91	n/a	n/a	8
70.074	n/a	35037	learningBlock_1	31	n/a	n/a	8
70.096	n/a	35048	dot_no1_ON	11	n/a	n/a	8
70.686	n/a	35343	dot_no1_OFF	21	n/a	n/a	8
72.006	n/a	36003	dot_no6_ON	16	n/a	n/a	8
72.586	n/a	36293	dot_no6_OFF	26	n/a	n/a	8
73.906	n/a	36953	dot_no4_ON	14	n/a	n/a	8
74.486	n/a	37243	dot_no4_OFF	24	n/a	n/a	8
75.806	n/a	37903	dot_no2_ON	12	n/a	n/a	8
76.386	n/a	38193	dot_no2_OFF	22	n/a	n/a	8
77.706	n/a	38853	dot_no7_ON	17	n/a	n/a	8
78.296	n/a	39148	dot_no7_OFF	27	n/a	n/a	8
79.616	n/a	39808	dot_no3_ON	13	n/a	n/a	8
80.196	n/a	40098	dot_no3_OFF	23	n/a	n/a	8
81.516	n/a	40758	dot_no8_ON	18	n/a	n/a	8
82.096	n/a	41048	dot_no8_OFF	28	n/a	n/a	8
83.416	n/a	41708	dot_no5_ON	15	n/a	n/a	8
83.996	n/a	41998	dot_no5_OFF	25	n/a	n/a	8
85.316	n/a	42658	dot_no2_ON	12	n/a	n/a	8
85.896	n/a	42948	dot_no2_OFF	22	n/a	n/a	8
87.216	n/a	43608	dot_no7_ON	17	n/a	n/a	8
87.796	n/a	43898	dot_no7_OFF	27	1-6-2-7-3-8-4-5-1-3	1-6-4-2-7-3-8-5-2-7	8
150.288	n/a	75144	learningBlock_2	32	n/a	n/a	8
150.298	n/a	75149	dot_no1_ON	11	n/a	n/a	8
150.878	n/a	75439	dot_no1_OFF	21	n/a	n/a	8
152.196	n/a	76098	dot_no6_ON	16	n/a	n/a	8
152.776	n/a	76388	dot_no6_OFF	26	n/a	n/a	8
154.098	n/a	77049	dot_no4_ON	14	n/a	n/a	8
154.678	n/a	77339	dot_no4_OFF	24	n/a	n/a	8
155.998	n/a	77999	dot_no2_ON	12	n/a	n/a	8
156.578	n/a	78289	dot_no2_OFF	22	n/a	n/a	8
157.898	n/a	78949	dot_no7_ON	17	n/a	n/a	8
158.478	n/a	79239	dot_no7_OFF	27	n/a	n/a	8
159.798	n/a	79899	dot_no3_ON	13	n/a	n/a	8
160.378	n/a	80189	dot_no3_OFF	23	n/a	n/a	8
161.698	n/a	80849	dot_no8_ON	18	n/a	n/a	8
162.278	n/a	81139	dot_no8_OFF	28	n/a	n/a	8
163.598	n/a	81799	dot_no5_ON	15	n/a	n/a	8
164.178	n/a	82089	dot_no5_OFF	25	n/a	n/a	8
165.498	n/a	82749	dot_no2_ON	12	n/a	n/a	8
166.078	n/a	83039	dot_no2_OFF	22	n/a	n/a	8
167.398	n/a	83699	dot_no7_ON	17	n/a	n/a	8
167.978	n/a	83989	dot_no7_OFF	27	1-6-3-8-4-2-7-5-2-2	1-6-4-2-7-3-8-5-2-7	8
194.77	n/a	97385	learningBlock_3	33	n/a	n/a	8
194.778	n/a	97389	dot_no1_ON	11	n/a	n/a	8
195.358	n/a	97679	dot_no1_OFF	21	n/a	n/a	8
196.678	n/a	98339	dot_no6_ON	16	n/a	n/a	8
197.268	n/a	98634	dot_no6_OFF	26	n/a	n/a	8
198.588	n/a	99294	dot_no4_ON	14	n/a	n/a	8
199.168	n/a	99584	dot_no4_OFF	24	n/a	n/a	8
200.488	n/a	100244	dot_no2_ON	12	n/a	n/a	8
201.068	n/a	100534	dot_no2_OFF	22	n/a	n/a	8
202.388	n/a	101194	dot_no7_ON	17	n/a	n/a	8
202.968	n/a	101484	dot_no7_OFF	27	n/a	n/a	8
204.288	n/a	102144	dot_no3_ON	13	n/a	n/a	8
204.868	n/a	102434	dot_no3_OFF	23	n/a	n/a	8
206.188	n/a	103094	dot_no8_ON	18	n/a	n/a	8
206.768	n/a	103384	dot_no8_OFF	28	n/a	n/a	8
208.088	n/a	104044	dot_no5_ON	15	n/a	n/a	8
208.668	n/a	104334	dot_no5_OFF	25	n/a	n/a	8
209.988	n/a	104994	dot_no2_ON	12	n/a	n/a	8
210.568	n/a	105284	dot_no2_OFF	22	n/a	n/a	8
211.888	n/a	105944	dot_no7_ON	17	n/a	n/a	8
212.478	n/a	106239	dot_no7_OFF	27	1-6-3-8-5-4-2-7-8-5	1-6-4-2-7-3-8-5-2-7	8
238.362	n/a	119181	learningBlock_4	34	n/a	n/a	8
238.368	n/a	119184	dot_no1_ON	11	n/a	n/a	8
238.948	n/a	119474	dot_no1_OFF	21	n/a	n/a	8
240.268	n/a	120134	dot_no6_ON	16	n/a	n/a	8
240.848	n/a	120424	dot_no6_OFF	26	n/a	n/a	8
242.168	n/a	121084	dot_no4_ON	14	n/a	n/a	8
242.75	n/a	121375	dot_no4_OFF	24	n/a	n/a	8
244.07	n/a	122035	dot_no2_ON	12	n/a	n/a	8
244.65	n/a	122325	dot_no2_OFF	22	n/a	n/a	8
245.97	n/a	122985	dot_no7_ON	17	n/a	n/a	8
246.55	n/a	123275	dot_no7_OFF	27	n/a	n/a	8
247.87	n/a	123935	dot_no3_ON	13	n/a	n/a	8
248.45	n/a	124225	dot_no3_OFF	23	n/a	n/a	8
249.77	n/a	124885	dot_no8_ON	18	n/a	n/a	8
250.35	n/a	125175	dot_no8_OFF	28	n/a	n/a	8
251.67	n/a	125835	dot_no5_ON	15	n/a	n/a	8
252.26	n/a	126130	dot_no5_OFF	25	n/a	n/a	8
253.58	n/a	126790	dot_no2_ON	12	n/a	n/a	8
254.16	n/a	127080	dot_no2_OFF	22	n/a	n/a	8
255.48	n/a	127740	dot_no7_ON	17	n/a	n/a	8
256.06	n/a	128030	dot_no7_OFF	27	1-6-4-3-8-5-2-7-4-8	1-6-4-2-7-3-8-5-2-7	8
280.952	n/a	140476	learningBlock_5	35	n/a	n/a	8
280.96	n/a	140480	dot_no1_ON	11	n/a	n/a	8
281.54	n/a	140770	dot_no1_OFF	21	n/a	n/a	8
282.86	n/a	141430	dot_no6_ON	16	n/a	n/a	8
283.44	n/a	141720	dot_no6_OFF	26	n/a	n/a	8
284.76	n/a	142380	dot_no4_ON	14	n/a	n/a	8
285.35	n/a	142675	dot_no4_OFF	24	n/a	n/a	8
286.67	n/a	143335	dot_no2_ON	12	n/a	n/a	8
287.25	n/a	143625	dot_no2_OFF	22	n/a	n/a	8
288.57	n/a	144285	dot_no7_ON	17	n/a	n/a	8
289.15	n/a	144575	dot_no7_OFF	27	n/a	n/a	8
290.47	n/a	145235	dot_no3_ON	13	n/a	n/a	8
291.05	n/a	145525	dot_no3_OFF	23	n/a	n/a	8
292.372	n/a	146186	dot_no8_ON	18	n/a	n/a	8
292.95	n/a	146475	dot_no8_OFF	28	n/a	n/a	8
294.27	n/a	147135	dot_no5_ON	15	n/a	n/a	8
294.85	n/a	147425	dot_no5_OFF	25	n/a	n/a	8
296.17	n/a	148085	dot_no2_ON	12	n/a	n/a	8
296.75	n/a	148375	dot_no2_OFF	22	n/a	n/a	8
298.07	n/a	149035	dot_no7_ON	17	n/a	n/a	8
298.66	n/a	149330	dot_no7_OFF	27	1-6-4-8-7-2-3-5-8-1	1-6-4-2-7-3-8-5-2-7	8
320.542	n/a	160271	seqLearning_stop	50	n/a	n/a	8
322.521	n/a	161260.5	boundary	boundary	n/a	n/a	8
