onset	duration	sample	value	event_code	user_answer	correct_answer	target_count
0	n/a	0	break cnt	break cnt	n/a	n/a	8
27.376	n/a	13688	seqLearning_start	91	n/a	n/a	8
33.652	n/a	16826	learningBlock_1	31	n/a	n/a	8
33.684	n/a	16842	dot_no1_ON	11	n/a	n/a	8
34.272	n/a	17136	dot_no1_OFF	21	n/a	n/a	8
35.592	n/a	17796	dot_no6_ON	16	n/a	n/a	8
36.172	n/a	18086	dot_no6_OFF	26	n/a	n/a	8
37.492	n/a	18746	dot_no4_ON	14	n/a	n/a	8
38.072	n/a	19036	dot_no4_OFF	24	n/a	n/a	8
39.392	n/a	19696	dot_no2_ON	12	n/a	n/a	8
39.972	n/a	19986	dot_no2_OFF	22	n/a	n/a	8
41.292	n/a	20646	dot_no7_ON	17	n/a	n/a	8
41.872	n/a	20936	dot_no7_OFF	27	n/a	n/a	8
43.192	n/a	21596	dot_no3_ON	13	n/a	n/a	8
43.772	n/a	21886	dot_no3_OFF	23	n/a	n/a	8
45.092	n/a	22546	dot_no8_ON	18	n/a	n/a	8
45.672	n/a	22836	dot_no8_OFF	28	n/a	n/a	8
46.992	n/a	23496	dot_no5_ON	15	n/a	n/a	8
47.582	n/a	23791	dot_no5_OFF	25	n/a	n/a	8
48.902	n/a	24451	dot_no2_ON	12	n/a	n/a	8
49.484	n/a	24742	dot_no2_OFF	22	n/a	n/a	8
50.802	n/a	25401	dot_no7_ON	17	n/a	n/a	8
51.382	n/a	25691	dot_no7_OFF	27	1-6-7-2-8-7-4-5-3-7	1-6-4-2-7-3-8-5-2-7	8
127.078	n/a	63539	learningBlock_2	32	n/a	n/a	8
127.084	n/a	63542	dot_no1_ON	11	n/a	n/a	8
127.664	n/a	63832	dot_no1_OFF	21	n/a	n/a	8
128.984	n/a	64492	dot_no6_ON	16	n/a	n/a	8
129.564	n/a	64782	dot_no6_OFF	26	n/a	n/a	8
130.894	n/a	65447	dot_no4_ON	14	n/a	n/a	8
131.474	n/a	65737	dot_no4_OFF	24	n/a	n/a	8
132.794	n/a	66397	dot_no2_ON	12	n/a	n/a	8
133.374	n/a	66687	dot_no2_OFF	22	n/a	n/a	8
134.694	n/a	67347	dot_no7_ON	17	n/a	n/a	8
135.284	n/a	67642	dot_no7_OFF	27	n/a	n/a	8
136.604	n/a	68302	dot_no3_ON	13	n/a	n/a	8
137.184	n/a	68592	dot_no3_OFF	23	n/a	n/a	8
138.504	n/a	69252	dot_no8_ON	18	n/a	n/a	8
139.094	n/a	69547	dot_no8_OFF	28	n/a	n/a	8
140.416	n/a	70208	dot_no5_ON	15	n/a	n/a	8
140.994	n/a	70497	dot_no5_OFF	25	n/a	n/a	8
142.314	n/a	71157	dot_no2_ON	12	n/a	n/a	8
142.894	n/a	71447	dot_no2_OFF	22	n/a	n/a	8
144.214	n/a	72107	dot_no7_ON	17	n/a	n/a	8
144.794	n/a	72397	dot_no7_OFF	27	2-6-3-8-1-5-4-7-7-7	1-6-4-2-7-3-8-5-2-7	8
176.818	n/a	88409	learningBlock_3	33	n/a	n/a	8
176.826	n/a	88413	dot_no1_ON	11	n/a	n/a	8
177.406	n/a	88703	dot_no1_OFF	21	n/a	n/a	8
178.726	n/a	89363	dot_no6_ON	16	n/a	n/a	8
179.306	n/a	89653	dot_no6_OFF	26	n/a	n/a	8
180.626	n/a	90313	dot_no4_ON	14	n/a	n/a	8
181.216	n/a	90608	dot_no4_OFF	24	n/a	n/a	8
182.536	n/a	91268	dot_no2_ON	12	n/a	n/a	8
183.116	n/a	91558	dot_no2_OFF	22	n/a	n/a	8
184.436	n/a	92218	dot_no7_ON	17	n/a	n/a	8
185.016	n/a	92508	dot_no7_OFF	27	n/a	n/a	8
186.336	n/a	93168	dot_no3_ON	13	n/a	n/a	8
186.916	n/a	93458	dot_no3_OFF	23	n/a	n/a	8
188.236	n/a	94118	dot_no8_ON	18	n/a	n/a	8
188.816	n/a	94408	dot_no8_OFF	28	n/a	n/a	8
190.136	n/a	95068	dot_no5_ON	15	n/a	n/a	8
190.716	n/a	95358	dot_no5_OFF	25	n/a	n/a	8
192.036	n/a	96018	dot_no2_ON	12	n/a	n/a	8
192.616	n/a	96308	dot_no2_OFF	22	n/a	n/a	8
193.936	n/a	96968	dot_no7_ON	17	n/a	n/a	8
194.526	n/a	97263	dot_no7_OFF	27	4-1-6-7-3-1-2-2-2-7	1-6-4-2-7-3-8-5-2-7	8
224.008	n/a	112004	learningBlock_4	34	n/a	n/a	8
224.016	n/a	112008	dot_no1_ON	11	n/a	n/a	8
224.596	n/a	112298	dot_no1_OFF	21	n/a	n/a	8
225.916	n/a	112958	dot_no6_ON	16	n/a	n/a	8
226.506	n/a	113253	dot_no6_OFF	26	n/a	n/a	8
227.826	n/a	113913	dot_no4_ON	14	n/a	n/a	8
228.406	n/a	114203	dot_no4_OFF	24	n/a	n/a	8
229.726	n/a	114863	dot_no2_ON	12	n/a	n/a	8
230.306	n/a	115153	dot_no2_OFF	22	n/a	n/a	8
231.626	n/a	115813	dot_no7_ON	17	n/a	n/a	8
232.206	n/a	116103	dot_no7_OFF	27	n/a	n/a	8
233.528	n/a	116764	dot_no3_ON	13	n/a	n/a	8
234.106	n/a	117053	dot_no3_OFF	23	n/a	n/a	8
235.426	n/a	117713	dot_no8_ON	18	n/a	n/a	8
236.006	n/a	118003	dot_no8_OFF	28	n/a	n/a	8
237.326	n/a	118663	dot_no5_ON	15	n/a	n/a	8
237.916	n/a	118958	dot_no5_OFF	25	n/a	n/a	8
239.256	n/a	119628	dot_no2_ON	12	n/a	n/a	8
239.836	n/a	119918	dot_no2_OFF	22	n/a	n/a	8
241.156	n/a	120578	dot_no7_ON	17	n/a	n/a	8
241.736	n/a	120868	dot_no7_OFF	27	1-6-8-2-4-5-7-7-7-7	1-6-4-2-7-3-8-5-2-7	8
275.01	n/a	137505	learningBlock_5	35	n/a	n/a	8
275.018	n/a	137509	dot_no1_ON	11	n/a	n/a	8
275.608	n/a	137804	dot_no1_OFF	21	n/a	n/a	8
276.928	n/a	138464	dot_no6_ON	16	n/a	n/a	8
277.508	n/a	138754	dot_no6_OFF	26	n/a	n/a	8
278.828	n/a	139414	dot_no4_ON	14	n/a	n/a	8
279.408	n/a	139704	dot_no4_OFF	24	n/a	n/a	8
280.728	n/a	140364	dot_no2_ON	12	n/a	n/a	8
281.308	n/a	140654	dot_no2_OFF	22	n/a	n/a	8
282.628	n/a	141314	dot_no7_ON	17	n/a	n/a	8
283.208	n/a	141604	dot_no7_OFF	27	n/a	n/a	8
284.528	n/a	142264	dot_no3_ON	13	n/a	n/a	8
285.108	n/a	142554	dot_no3_OFF	23	n/a	n/a	8
286.428	n/a	143214	dot_no8_ON	18	n/a	n/a	8
287.008	n/a	143504	dot_no8_OFF	28	n/a	n/a	8
288.328	n/a	144164	dot_no5_ON	15	n/a	n/a	8
288.908	n/a	144454	dot_no5_OFF	25	n/a	n/a	8
290.228	n/a	145114	dot_no2_ON	12	n/a	n/a	8
290.808	n/a	145404	dot_no2_OFF	22	n/a	n/a	8
292.128	n/a	146064	dot_no7_ON	17	n/a	n/a	8
292.718	n/a	146359	dot_no7_OFF	27	2-6-5-4-8-1-3-7-7-7	1-6-4-2-7-3-8-5-2-7	8
318.842	n/a	159421	seqLearning_stop	50	n/a	n/a	8
320.765	n/a	160382.5	boundary	boundary	n/a	n/a	8
