onset	duration	sample	value	event_code	user_answer	correct_answer	target_count
0	n/a	0	break cnt	break cnt	n/a	n/a	8
25.668	n/a	12834	seqLearning_start	91	n/a	n/a	8
31.934	n/a	15967	learningBlock_1	31	n/a	n/a	8
31.964	n/a	15982	dot_no1_ON	11	n/a	n/a	8
32.552	n/a	16276	dot_no1_OFF	21	n/a	n/a	8
33.872	n/a	16936	dot_no6_ON	16	n/a	n/a	8
34.462	n/a	17231	dot_no6_OFF	26	n/a	n/a	8
35.782	n/a	17891	dot_no4_ON	14	n/a	n/a	8
36.362	n/a	18181	dot_no4_OFF	24	n/a	n/a	8
37.682	n/a	18841	dot_no2_ON	12	n/a	n/a	8
38.262	n/a	19131	dot_no2_OFF	22	n/a	n/a	8
39.582	n/a	19791	dot_no7_ON	17	n/a	n/a	8
40.172	n/a	20086	dot_no7_OFF	27	n/a	n/a	8
41.492	n/a	20746	dot_no3_ON	13	n/a	n/a	8
42.072	n/a	21036	dot_no3_OFF	23	n/a	n/a	8
43.392	n/a	21696	dot_no8_ON	18	n/a	n/a	8
43.972	n/a	21986	dot_no8_OFF	28	n/a	n/a	8
45.292	n/a	22646	dot_no5_ON	15	n/a	n/a	8
45.882	n/a	22941	dot_no5_OFF	25	n/a	n/a	8
47.202	n/a	23601	dot_no2_ON	12	n/a	n/a	8
47.782	n/a	23891	dot_no2_OFF	22	n/a	n/a	8
49.102	n/a	24551	dot_no7_ON	17	n/a	n/a	8
49.682	n/a	24841	dot_no7_OFF	27	1-6-7-3-4-8-6-7-2-5	1-6-4-2-7-3-8-5-2-7	8
103.732	n/a	51866	learningBlock_2	32	n/a	n/a	8
103.74	n/a	51870	dot_no1_ON	11	n/a	n/a	8
104.32	n/a	52160	dot_no1_OFF	21	n/a	n/a	8
105.64	n/a	52820	dot_no6_ON	16	n/a	n/a	8
106.22	n/a	53110	dot_no6_OFF	26	n/a	n/a	8
107.54	n/a	53770	dot_no4_ON	14	n/a	n/a	8
108.12	n/a	54060	dot_no4_OFF	24	n/a	n/a	8
109.44	n/a	54720	dot_no2_ON	12	n/a	n/a	8
110.02	n/a	55010	dot_no2_OFF	22	n/a	n/a	8
111.34	n/a	55670	dot_no7_ON	17	n/a	n/a	8
111.92	n/a	55960	dot_no7_OFF	27	n/a	n/a	8
113.24	n/a	56620	dot_no3_ON	13	n/a	n/a	8
113.82	n/a	56910	dot_no3_OFF	23	n/a	n/a	8
115.14	n/a	57570	dot_no8_ON	18	n/a	n/a	8
115.73	n/a	57865	dot_no8_OFF	28	n/a	n/a	8
117.05	n/a	58525	dot_no5_ON	15	n/a	n/a	8
117.64	n/a	58820	dot_no5_OFF	25	n/a	n/a	8
118.96	n/a	59480	dot_no2_ON	12	n/a	n/a	8
119.54	n/a	59770	dot_no2_OFF	22	n/a	n/a	8
120.86	n/a	60430	dot_no7_ON	17	n/a	n/a	8
121.44	n/a	60720	dot_no7_OFF	27	1-5-7-3-6-3-7-8-4-6	1-6-4-2-7-3-8-5-2-7	8
175.632	n/a	87816	learningBlock_3	33	n/a	n/a	8
175.64	n/a	87820	dot_no1_ON	11	n/a	n/a	8
176.23	n/a	88115	dot_no1_OFF	21	n/a	n/a	8
177.55	n/a	88775	dot_no6_ON	16	n/a	n/a	8
178.14	n/a	89070	dot_no6_OFF	26	n/a	n/a	8
179.46	n/a	89730	dot_no4_ON	14	n/a	n/a	8
180.05	n/a	90025	dot_no4_OFF	24	n/a	n/a	8
181.37	n/a	90685	dot_no2_ON	12	n/a	n/a	8
181.95	n/a	90975	dot_no2_OFF	22	n/a	n/a	8
183.27	n/a	91635	dot_no7_ON	17	n/a	n/a	8
183.85	n/a	91925	dot_no7_OFF	27	n/a	n/a	8
185.17	n/a	92585	dot_no3_ON	13	n/a	n/a	8
185.76	n/a	92880	dot_no3_OFF	23	n/a	n/a	8
187.078	n/a	93539	dot_no8_ON	18	n/a	n/a	8
187.658	n/a	93829	dot_no8_OFF	28	n/a	n/a	8
188.978	n/a	94489	dot_no5_ON	15	n/a	n/a	8
189.558	n/a	94779	dot_no5_OFF	25	n/a	n/a	8
190.878	n/a	95439	dot_no2_ON	12	n/a	n/a	8
191.458	n/a	95729	dot_no2_OFF	22	n/a	n/a	8
192.778	n/a	96389	dot_no7_ON	17	n/a	n/a	8
193.358	n/a	96679	dot_no7_OFF	27	5-6-7-3-4-1-7-1-2-8	1-6-4-2-7-3-8-5-2-7	8
226.62	n/a	113310	learningBlock_4	34	n/a	n/a	8
226.628	n/a	113314	dot_no1_ON	11	n/a	n/a	8
227.208	n/a	113604	dot_no1_OFF	21	n/a	n/a	8
228.528	n/a	114264	dot_no6_ON	16	n/a	n/a	8
229.108	n/a	114554	dot_no6_OFF	26	n/a	n/a	8
230.428	n/a	115214	dot_no4_ON	14	n/a	n/a	8
231.008	n/a	115504	dot_no4_OFF	24	n/a	n/a	8
232.328	n/a	116164	dot_no2_ON	12	n/a	n/a	8
232.908	n/a	116454	dot_no2_OFF	22	n/a	n/a	8
234.228	n/a	117114	dot_no7_ON	17	n/a	n/a	8
234.808	n/a	117404	dot_no7_OFF	27	n/a	n/a	8
236.128	n/a	118064	dot_no3_ON	13	n/a	n/a	8
236.708	n/a	118354	dot_no3_OFF	23	n/a	n/a	8
238.028	n/a	119014	dot_no8_ON	18	n/a	n/a	8
238.608	n/a	119304	dot_no8_OFF	28	n/a	n/a	8
239.928	n/a	119964	dot_no5_ON	15	n/a	n/a	8
240.518	n/a	120259	dot_no5_OFF	25	n/a	n/a	8
241.838	n/a	120919	dot_no2_ON	12	n/a	n/a	8
242.418	n/a	121209	dot_no2_OFF	22	n/a	n/a	8
243.738	n/a	121869	dot_no7_ON	17	n/a	n/a	8
244.318	n/a	122159	dot_no7_OFF	27	1-6-7-3-4-2-8-5-7-4	1-6-4-2-7-3-8-5-2-7	8
281.088	n/a	140544	learningBlock_5	35	n/a	n/a	8
281.098	n/a	140549	dot_no1_ON	11	n/a	n/a	8
281.688	n/a	140844	dot_no1_OFF	21	n/a	n/a	8
283.008	n/a	141504	dot_no6_ON	16	n/a	n/a	8
283.598	n/a	141799	dot_no6_OFF	26	n/a	n/a	8
284.918	n/a	142459	dot_no4_ON	14	n/a	n/a	8
285.498	n/a	142749	dot_no4_OFF	24	n/a	n/a	8
286.818	n/a	143409	dot_no2_ON	12	n/a	n/a	8
287.398	n/a	143699	dot_no2_OFF	22	n/a	n/a	8
288.718	n/a	144359	dot_no7_ON	17	n/a	n/a	8
289.298	n/a	144649	dot_no7_OFF	27	n/a	n/a	8
290.618	n/a	145309	dot_no3_ON	13	n/a	n/a	8
291.198	n/a	145599	dot_no3_OFF	23	n/a	n/a	8
292.516	n/a	146258	dot_no8_ON	18	n/a	n/a	8
293.096	n/a	146548	dot_no8_OFF	28	n/a	n/a	8
294.416	n/a	147208	dot_no5_ON	15	n/a	n/a	8
294.996	n/a	147498	dot_no5_OFF	25	n/a	n/a	8
296.316	n/a	148158	dot_no2_ON	12	n/a	n/a	8
296.896	n/a	148448	dot_no2_OFF	22	n/a	n/a	8
298.216	n/a	149108	dot_no7_ON	17	n/a	n/a	8
298.806	n/a	149403	dot_no7_OFF	27	6-4-5-3-7-8-2-1-1-8	1-6-4-2-7-3-8-5-2-7	8
321.438	n/a	160719	seqLearning_stop	50	n/a	n/a	8
323.267	n/a	161633.5	boundary	boundary	n/a	n/a	8
