onset	duration	sample	value	event_code	user_answer	correct_answer	target_count
0	n/a	0	break cnt	break cnt	n/a	n/a	6
31.362	n/a	15681	seqLearning_start	91	n/a	n/a	6
37.63	n/a	18815	learningBlock_1	31	n/a	n/a	6
37.662	n/a	18831	dot_no1_ON	11	n/a	n/a	6
38.252	n/a	19126	dot_no1_OFF	21	n/a	n/a	6
39.572	n/a	19786	dot_no6_ON	16	n/a	n/a	6
40.152	n/a	20076	dot_no6_OFF	26	n/a	n/a	6
41.472	n/a	20736	dot_no4_ON	14	n/a	n/a	6
42.052	n/a	21026	dot_no4_OFF	24	n/a	n/a	6
43.372	n/a	21686	dot_no2_ON	12	n/a	n/a	6
43.952	n/a	21976	dot_no2_OFF	22	n/a	n/a	6
45.282	n/a	22641	dot_no3_ON	13	n/a	n/a	6
45.862	n/a	22931	dot_no3_OFF	23	n/a	n/a	6
47.182	n/a	23591	dot_no5_ON	15	n/a	n/a	6
47.762	n/a	23881	dot_no5_OFF	25	n/a	n/a	6
49.082	n/a	24541	dot_no2_ON	12	n/a	n/a	6
49.662	n/a	24831	dot_no2_OFF	22	1-4-6-5-2-3-1	1-6-4-2-3-5-2	6
112.434	n/a	56217	learningBlock_2	32	n/a	n/a	6
112.442	n/a	56221	dot_no1_ON	11	n/a	n/a	6
113.032	n/a	56516	dot_no1_OFF	21	n/a	n/a	6
114.352	n/a	57176	dot_no6_ON	16	n/a	n/a	6
114.942	n/a	57471	dot_no6_OFF	26	n/a	n/a	6
116.264	n/a	58132	dot_no4_ON	14	n/a	n/a	6
116.842	n/a	58421	dot_no4_OFF	24	n/a	n/a	6
118.164	n/a	59082	dot_no2_ON	12	n/a	n/a	6
118.742	n/a	59371	dot_no2_OFF	22	n/a	n/a	6
120.064	n/a	60032	dot_no3_ON	13	n/a	n/a	6
120.644	n/a	60322	dot_no3_OFF	23	n/a	n/a	6
121.964	n/a	60982	dot_no5_ON	15	n/a	n/a	6
122.544	n/a	61272	dot_no5_OFF	25	n/a	n/a	6
123.864	n/a	61932	dot_no2_ON	12	n/a	n/a	6
124.444	n/a	62222	dot_no2_OFF	22	1-6-4-2-3-5-1	1-6-4-2-3-5-2	6
160.226	n/a	80113	learningBlock_3	33	n/a	n/a	6
160.234	n/a	80117	dot_no1_ON	11	n/a	n/a	6
160.814	n/a	80407	dot_no1_OFF	21	n/a	n/a	6
162.134	n/a	81067	dot_no6_ON	16	n/a	n/a	6
162.714	n/a	81357	dot_no6_OFF	26	n/a	n/a	6
164.034	n/a	82017	dot_no4_ON	14	n/a	n/a	6
164.614	n/a	82307	dot_no4_OFF	24	n/a	n/a	6
165.934	n/a	82967	dot_no2_ON	12	n/a	n/a	6
166.514	n/a	83257	dot_no2_OFF	22	n/a	n/a	6
167.834	n/a	83917	dot_no3_ON	13	n/a	n/a	6
168.414	n/a	84207	dot_no3_OFF	23	n/a	n/a	6
169.734	n/a	84867	dot_no5_ON	15	n/a	n/a	6
170.314	n/a	85157	dot_no5_OFF	25	n/a	n/a	6
171.634	n/a	85817	dot_no2_ON	12	n/a	n/a	6
172.214	n/a	86107	dot_no2_OFF	22	1-6-5-4-2-3-6	1-6-4-2-3-5-2	6
220.968	n/a	110484	learningBlock_4	34	n/a	n/a	6
220.976	n/a	110488	dot_no1_ON	11	n/a	n/a	6
221.556	n/a	110778	dot_no1_OFF	21	n/a	n/a	6
222.876	n/a	111438	dot_no6_ON	16	n/a	n/a	6
223.456	n/a	111728	dot_no6_OFF	26	n/a	n/a	6
224.776	n/a	112388	dot_no4_ON	14	n/a	n/a	6
225.356	n/a	112678	dot_no4_OFF	24	n/a	n/a	6
226.676	n/a	113338	dot_no2_ON	12	n/a	n/a	6
227.256	n/a	113628	dot_no2_OFF	22	n/a	n/a	6
228.576	n/a	114288	dot_no3_ON	13	n/a	n/a	6
229.156	n/a	114578	dot_no3_OFF	23	n/a	n/a	6
230.476	n/a	115238	dot_no5_ON	15	n/a	n/a	6
231.056	n/a	115528	dot_no5_OFF	25	n/a	n/a	6
232.376	n/a	116188	dot_no2_ON	12	n/a	n/a	6
232.956	n/a	116478	dot_no2_OFF	22	1-6-4-2-3-5-1	1-6-4-2-3-5-2	6
271.618	n/a	135809	learningBlock_5	35	n/a	n/a	6
271.626	n/a	135813	dot_no1_ON	11	n/a	n/a	6
272.206	n/a	136103	dot_no1_OFF	21	n/a	n/a	6
273.526	n/a	136763	dot_no6_ON	16	n/a	n/a	6
274.106	n/a	137053	dot_no6_OFF	26	n/a	n/a	6
275.426	n/a	137713	dot_no4_ON	14	n/a	n/a	6
276.006	n/a	138003	dot_no4_OFF	24	n/a	n/a	6
277.326	n/a	138663	dot_no2_ON	12	n/a	n/a	6
277.906	n/a	138953	dot_no2_OFF	22	n/a	n/a	6
279.226	n/a	139613	dot_no3_ON	13	n/a	n/a	6
279.806	n/a	139903	dot_no3_OFF	23	n/a	n/a	6
281.126	n/a	140563	dot_no5_ON	15	n/a	n/a	6
281.706	n/a	140853	dot_no5_OFF	25	n/a	n/a	6
283.026	n/a	141513	dot_no2_ON	12	n/a	n/a	6
283.606	n/a	141803	dot_no2_OFF	22	1-5-4-2-3-6-1	1-6-4-2-3-5-2	6
324.57	n/a	162285	seqLearning_stop	50	n/a	n/a	6
326.616	n/a	163308	break cnt	break cnt	n/a	n/a	6
368.104	n/a	184052	symbolSearch_start	92	n/a	n/a	6
371.036	n/a	185518	instructed_toOpenEyes	20	n/a	n/a	6
398.622	n/a	199311	dot_no4_ON	14	n/a	n/a	6
401.26	n/a	200630	dot_no4_ON	14	n/a	n/a	6
415.032	n/a	207516	dot_no4_ON	14	n/a	n/a	6
428.522	n/a	214261	dot_no4_ON	14	n/a	n/a	6
445.522	n/a	222761	dot_no4_ON	14	n/a	n/a	6
457.722	n/a	228861	dot_no4_ON	14	n/a	n/a	6
468.97	n/a	234485	dot_no4_ON	14	n/a	n/a	6
474.058	n/a	237029	dot_no4_ON	14	n/a	n/a	6
485.59	n/a	242795	dot_no4_ON	14	n/a	n/a	6
