onset	duration	sample	value	event_code	user_answer	correct_answer	target_count
0	n/a	0	break cnt	break cnt	n/a	n/a	8
125.184	n/a	62592	seqLearning_start	91	n/a	n/a	8
134.508	n/a	67254	learningBlock_1	31	n/a	n/a	8
134.526	n/a	67263	dot_no1_ON	11	n/a	n/a	8
135.114	n/a	67557	dot_no1_OFF	21	n/a	n/a	8
136.436	n/a	68218	dot_no6_ON	16	n/a	n/a	8
137.024	n/a	68512	dot_no6_OFF	26	n/a	n/a	8
138.346	n/a	69173	dot_no4_ON	14	n/a	n/a	8
138.934	n/a	69467	dot_no4_OFF	24	n/a	n/a	8
140.256	n/a	70128	dot_no2_ON	12	n/a	n/a	8
140.844	n/a	70422	dot_no2_OFF	22	n/a	n/a	8
142.166	n/a	71083	dot_no7_ON	17	n/a	n/a	8
142.754	n/a	71377	dot_no7_OFF	27	n/a	n/a	8
144.076	n/a	72038	dot_no3_ON	13	n/a	n/a	8
144.664	n/a	72332	dot_no3_OFF	23	n/a	n/a	8
145.986	n/a	72993	dot_no8_ON	18	n/a	n/a	8
146.574	n/a	73287	dot_no8_OFF	28	n/a	n/a	8
147.896	n/a	73948	dot_no5_ON	15	n/a	n/a	8
148.484	n/a	74242	dot_no5_OFF	25	n/a	n/a	8
149.806	n/a	74903	dot_no2_ON	12	n/a	n/a	8
150.394	n/a	75197	dot_no2_OFF	22	n/a	n/a	8
151.716	n/a	75858	dot_no7_ON	17	n/a	n/a	8
152.304	n/a	76152	dot_no7_OFF	27	1-8-7-6-5-4-3-2-1-8	1-6-4-2-7-3-8-5-2-7	8
175.192	n/a	87596	learningBlock_2	32	n/a	n/a	8
175.206	n/a	87603	dot_no1_ON	11	n/a	n/a	8
175.794	n/a	87897	dot_no1_OFF	21	n/a	n/a	8
177.116	n/a	88558	dot_no6_ON	16	n/a	n/a	8
177.704	n/a	88852	dot_no6_OFF	26	n/a	n/a	8
179.026	n/a	89513	dot_no4_ON	14	n/a	n/a	8
179.614	n/a	89807	dot_no4_OFF	24	n/a	n/a	8
180.936	n/a	90468	dot_no2_ON	12	n/a	n/a	8
181.524	n/a	90762	dot_no2_OFF	22	n/a	n/a	8
182.846	n/a	91423	dot_no7_ON	17	n/a	n/a	8
183.434	n/a	91717	dot_no7_OFF	27	n/a	n/a	8
184.756	n/a	92378	dot_no3_ON	13	n/a	n/a	8
185.344	n/a	92672	dot_no3_OFF	23	n/a	n/a	8
186.666	n/a	93333	dot_no8_ON	18	n/a	n/a	8
187.254	n/a	93627	dot_no8_OFF	28	n/a	n/a	8
188.576	n/a	94288	dot_no5_ON	15	n/a	n/a	8
189.166	n/a	94583	dot_no5_OFF	25	n/a	n/a	8
190.486	n/a	95243	dot_no2_ON	12	n/a	n/a	8
191.076	n/a	95538	dot_no2_OFF	22	n/a	n/a	8
192.396	n/a	96198	dot_no7_ON	17	n/a	n/a	8
192.984	n/a	96492	dot_no7_OFF	27	7-8-1-2-3-4-5-6-7-6	1-6-4-2-7-3-8-5-2-7	8
212.908	n/a	106454	learningBlock_3	33	n/a	n/a	8
212.916	n/a	106458	dot_no1_ON	11	n/a	n/a	8
213.504	n/a	106752	dot_no1_OFF	21	n/a	n/a	8
214.826	n/a	107413	dot_no6_ON	16	n/a	n/a	8
215.414	n/a	107707	dot_no6_OFF	26	n/a	n/a	8
216.736	n/a	108368	dot_no4_ON	14	n/a	n/a	8
217.326	n/a	108663	dot_no4_OFF	24	n/a	n/a	8
218.646	n/a	109323	dot_no2_ON	12	n/a	n/a	8
219.236	n/a	109618	dot_no2_OFF	22	n/a	n/a	8
220.556	n/a	110278	dot_no7_ON	17	n/a	n/a	8
221.144	n/a	110572	dot_no7_OFF	27	n/a	n/a	8
222.466	n/a	111233	dot_no3_ON	13	n/a	n/a	8
223.056	n/a	111528	dot_no3_OFF	23	n/a	n/a	8
224.376	n/a	112188	dot_no8_ON	18	n/a	n/a	8
224.964	n/a	112482	dot_no8_OFF	28	n/a	n/a	8
226.286	n/a	113143	dot_no5_ON	15	n/a	n/a	8
226.874	n/a	113437	dot_no5_OFF	25	n/a	n/a	8
228.196	n/a	114098	dot_no2_ON	12	n/a	n/a	8
228.786	n/a	114393	dot_no2_OFF	22	n/a	n/a	8
230.106	n/a	115053	dot_no7_ON	17	n/a	n/a	8
230.694	n/a	115347	dot_no7_OFF	27	1-2-3-4-5-6-7-8-1-8	1-6-4-2-7-3-8-5-2-7	8
249.904	n/a	124952	learningBlock_4	34	n/a	n/a	8
249.916	n/a	124958	dot_no1_ON	11	n/a	n/a	8
250.506	n/a	125253	dot_no1_OFF	21	n/a	n/a	8
251.826	n/a	125913	dot_no6_ON	16	n/a	n/a	8
252.416	n/a	126208	dot_no6_OFF	26	n/a	n/a	8
253.736	n/a	126868	dot_no4_ON	14	n/a	n/a	8
254.326	n/a	127163	dot_no4_OFF	24	n/a	n/a	8
255.646	n/a	127823	dot_no2_ON	12	n/a	n/a	8
256.236	n/a	128118	dot_no2_OFF	22	n/a	n/a	8
257.556	n/a	128778	dot_no7_ON	17	n/a	n/a	8
258.146	n/a	129073	dot_no7_OFF	27	n/a	n/a	8
259.466	n/a	129733	dot_no3_ON	13	n/a	n/a	8
260.054	n/a	130027	dot_no3_OFF	23	n/a	n/a	8
261.376	n/a	130688	dot_no8_ON	18	n/a	n/a	8
261.966	n/a	130983	dot_no8_OFF	28	n/a	n/a	8
263.286	n/a	131643	dot_no5_ON	15	n/a	n/a	8
263.874	n/a	131937	dot_no5_OFF	25	n/a	n/a	8
265.196	n/a	132598	dot_no2_ON	12	n/a	n/a	8
265.786	n/a	132893	dot_no2_OFF	22	n/a	n/a	8
267.106	n/a	133553	dot_no7_ON	17	n/a	n/a	8
267.696	n/a	133848	dot_no7_OFF	27	7-8-1-2-3-5-4-6-7-6	1-6-4-2-7-3-8-5-2-7	8
283.658	n/a	141829	learningBlock_5	35	n/a	n/a	8
283.666	n/a	141833	dot_no1_ON	11	n/a	n/a	8
284.256	n/a	142128	dot_no1_OFF	21	n/a	n/a	8
285.578	n/a	142789	dot_no6_ON	16	n/a	n/a	8
286.166	n/a	143083	dot_no6_OFF	26	n/a	n/a	8
287.486	n/a	143743	dot_no4_ON	14	n/a	n/a	8
288.076	n/a	144038	dot_no4_OFF	24	n/a	n/a	8
289.396	n/a	144698	dot_no2_ON	12	n/a	n/a	8
289.984	n/a	144992	dot_no2_OFF	22	n/a	n/a	8
291.306	n/a	145653	dot_no7_ON	17	n/a	n/a	8
291.896	n/a	145948	dot_no7_OFF	27	n/a	n/a	8
293.216	n/a	146608	dot_no3_ON	13	n/a	n/a	8
293.806	n/a	146903	dot_no3_OFF	23	n/a	n/a	8
295.126	n/a	147563	dot_no8_ON	18	n/a	n/a	8
295.716	n/a	147858	dot_no8_OFF	28	n/a	n/a	8
297.036	n/a	148518	dot_no5_ON	15	n/a	n/a	8
297.626	n/a	148813	dot_no5_OFF	25	n/a	n/a	8
298.946	n/a	149473	dot_no2_ON	12	n/a	n/a	8
299.534	n/a	149767	dot_no2_OFF	22	n/a	n/a	8
300.856	n/a	150428	dot_no7_ON	17	n/a	n/a	8
301.446	n/a	150723	dot_no7_OFF	27	6-8-7-1-2-3-4-5-5-7	1-6-4-2-7-3-8-5-2-7	8
316.32	n/a	158160	seqLearning_stop	50	n/a	n/a	8
317.255	n/a	158627.5	boundary	boundary	n/a	n/a	8
