onset	duration	sample	value	event_code	user_answer	correct_answer	target_count
0	n/a	0	break cnt	break cnt	n/a	n/a	8
27.17	n/a	13585	seqLearning_start	91	n/a	n/a	8
33.436	n/a	16718	learningBlock_1	31	n/a	n/a	8
33.47	n/a	16735	dot_no1_ON	11	n/a	n/a	8
34.06	n/a	17030	dot_no1_OFF	21	n/a	n/a	8
35.378	n/a	17689	dot_no6_ON	16	n/a	n/a	8
35.968	n/a	17984	dot_no6_OFF	26	n/a	n/a	8
37.288	n/a	18644	dot_no4_ON	14	n/a	n/a	8
37.868	n/a	18934	dot_no4_OFF	24	n/a	n/a	8
39.188	n/a	19594	dot_no2_ON	12	n/a	n/a	8
39.768	n/a	19884	dot_no2_OFF	22	n/a	n/a	8
41.088	n/a	20544	dot_no7_ON	17	n/a	n/a	8
41.668	n/a	20834	dot_no7_OFF	27	n/a	n/a	8
42.988	n/a	21494	dot_no3_ON	13	n/a	n/a	8
43.568	n/a	21784	dot_no3_OFF	23	n/a	n/a	8
44.888	n/a	22444	dot_no8_ON	18	n/a	n/a	8
45.468	n/a	22734	dot_no8_OFF	28	n/a	n/a	8
46.788	n/a	23394	dot_no5_ON	15	n/a	n/a	8
47.368	n/a	23684	dot_no5_OFF	25	n/a	n/a	8
48.688	n/a	24344	dot_no2_ON	12	n/a	n/a	8
49.268	n/a	24634	dot_no2_OFF	22	n/a	n/a	8
50.618	n/a	25309	dot_no7_ON	17	n/a	n/a	8
51.198	n/a	25599	dot_no7_OFF	27	1-6-4-2-7-3-8-5-2-7	1-6-4-2-7-3-8-5-2-7	8
77.568	n/a	38784	learningBlock_2	32	n/a	n/a	8
77.578	n/a	38789	dot_no1_ON	11	n/a	n/a	8
78.168	n/a	39084	dot_no1_OFF	21	n/a	n/a	8
79.488	n/a	39744	dot_no6_ON	16	n/a	n/a	8
80.068	n/a	40034	dot_no6_OFF	26	n/a	n/a	8
81.388	n/a	40694	dot_no4_ON	14	n/a	n/a	8
81.968	n/a	40984	dot_no4_OFF	24	n/a	n/a	8
83.288	n/a	41644	dot_no2_ON	12	n/a	n/a	8
83.868	n/a	41934	dot_no2_OFF	22	n/a	n/a	8
85.188	n/a	42594	dot_no7_ON	17	n/a	n/a	8
85.768	n/a	42884	dot_no7_OFF	27	n/a	n/a	8
87.088	n/a	43544	dot_no3_ON	13	n/a	n/a	8
87.668	n/a	43834	dot_no3_OFF	23	n/a	n/a	8
88.988	n/a	44494	dot_no8_ON	18	n/a	n/a	8
89.568	n/a	44784	dot_no8_OFF	28	n/a	n/a	8
90.888	n/a	45444	dot_no5_ON	15	n/a	n/a	8
91.468	n/a	45734	dot_no5_OFF	25	n/a	n/a	8
92.788	n/a	46394	dot_no2_ON	12	n/a	n/a	8
93.368	n/a	46684	dot_no2_OFF	22	n/a	n/a	8
94.688	n/a	47344	dot_no7_ON	17	n/a	n/a	8
95.268	n/a	47634	dot_no7_OFF	27	1-6-4-2-7-3-8-5-2-7	1-6-4-2-7-3-8-5-2-7	8
117.808	n/a	58904	learningBlock_3	33	n/a	n/a	8
117.816	n/a	58908	dot_no1_ON	11	n/a	n/a	8
118.396	n/a	59198	dot_no1_OFF	21	n/a	n/a	8
119.716	n/a	59858	dot_no6_ON	16	n/a	n/a	8
120.296	n/a	60148	dot_no6_OFF	26	n/a	n/a	8
121.616	n/a	60808	dot_no4_ON	14	n/a	n/a	8
122.206	n/a	61103	dot_no4_OFF	24	n/a	n/a	8
123.526	n/a	61763	dot_no2_ON	12	n/a	n/a	8
124.106	n/a	62053	dot_no2_OFF	22	n/a	n/a	8
125.426	n/a	62713	dot_no7_ON	17	n/a	n/a	8
126.006	n/a	63003	dot_no7_OFF	27	n/a	n/a	8
127.336	n/a	63668	dot_no3_ON	13	n/a	n/a	8
127.916	n/a	63958	dot_no3_OFF	23	n/a	n/a	8
129.236	n/a	64618	dot_no8_ON	18	n/a	n/a	8
129.816	n/a	64908	dot_no8_OFF	28	n/a	n/a	8
131.136	n/a	65568	dot_no5_ON	15	n/a	n/a	8
131.716	n/a	65858	dot_no5_OFF	25	n/a	n/a	8
133.036	n/a	66518	dot_no2_ON	12	n/a	n/a	8
133.616	n/a	66808	dot_no2_OFF	22	n/a	n/a	8
134.936	n/a	67468	dot_no7_ON	17	n/a	n/a	8
135.516	n/a	67758	dot_no7_OFF	27	1-6-4-2-7-3-8-5-2-7	1-6-4-2-7-3-8-5-2-7	8
154.028	n/a	77014	learningBlock_4	34	n/a	n/a	8
154.036	n/a	77018	dot_no1_ON	11	n/a	n/a	8
154.616	n/a	77308	dot_no1_OFF	21	n/a	n/a	8
155.936	n/a	77968	dot_no6_ON	16	n/a	n/a	8
156.516	n/a	78258	dot_no6_OFF	26	n/a	n/a	8
157.836	n/a	78918	dot_no4_ON	14	n/a	n/a	8
158.416	n/a	79208	dot_no4_OFF	24	n/a	n/a	8
159.736	n/a	79868	dot_no2_ON	12	n/a	n/a	8
160.316	n/a	80158	dot_no2_OFF	22	n/a	n/a	8
161.636	n/a	80818	dot_no7_ON	17	n/a	n/a	8
162.216	n/a	81108	dot_no7_OFF	27	n/a	n/a	8
163.536	n/a	81768	dot_no3_ON	13	n/a	n/a	8
164.116	n/a	82058	dot_no3_OFF	23	n/a	n/a	8
165.436	n/a	82718	dot_no8_ON	18	n/a	n/a	8
166.016	n/a	83008	dot_no8_OFF	28	n/a	n/a	8
167.336	n/a	83668	dot_no5_ON	15	n/a	n/a	8
167.926	n/a	83963	dot_no5_OFF	25	n/a	n/a	8
169.246	n/a	84623	dot_no2_ON	12	n/a	n/a	8
169.826	n/a	84913	dot_no2_OFF	22	n/a	n/a	8
171.146	n/a	85573	dot_no7_ON	17	n/a	n/a	8
171.726	n/a	85863	dot_no7_OFF	27	1-6-4-2-8-5-7-3-2-7	1-6-4-2-7-3-8-5-2-7	8
192.828	n/a	96414	learningBlock_5	35	n/a	n/a	8
192.836	n/a	96418	dot_no1_ON	11	n/a	n/a	8
193.416	n/a	96708	dot_no1_OFF	21	n/a	n/a	8
194.736	n/a	97368	dot_no6_ON	16	n/a	n/a	8
195.316	n/a	97658	dot_no6_OFF	26	n/a	n/a	8
196.636	n/a	98318	dot_no4_ON	14	n/a	n/a	8
197.216	n/a	98608	dot_no4_OFF	24	n/a	n/a	8
198.536	n/a	99268	dot_no2_ON	12	n/a	n/a	8
199.116	n/a	99558	dot_no2_OFF	22	n/a	n/a	8
200.436	n/a	100218	dot_no7_ON	17	n/a	n/a	8
201.016	n/a	100508	dot_no7_OFF	27	n/a	n/a	8
202.336	n/a	101168	dot_no3_ON	13	n/a	n/a	8
202.916	n/a	101458	dot_no3_OFF	23	n/a	n/a	8
204.236	n/a	102118	dot_no8_ON	18	n/a	n/a	8
204.816	n/a	102408	dot_no8_OFF	28	n/a	n/a	8
206.134	n/a	103067	dot_no5_ON	15	n/a	n/a	8
206.726	n/a	103363	dot_no5_OFF	25	n/a	n/a	8
208.046	n/a	104023	dot_no2_ON	12	n/a	n/a	8
208.626	n/a	104313	dot_no2_OFF	22	n/a	n/a	8
209.944	n/a	104972	dot_no7_ON	17	n/a	n/a	8
210.536	n/a	105268	dot_no7_OFF	27	1-6-4-2-5-7-3-8-2-7	1-6-4-2-7-3-8-5-2-7	8
232.658	n/a	116329	seqLearning_stop	50	n/a	n/a	8
234.931	n/a	117465.5	boundary	boundary	n/a	n/a	8
