onset	duration	sample	value	event_code	user_answer	correct_answer
0	n/a	0	break cnt	break cnt	n/a	n/a
104.756	n/a	52378	symbolSearch_start	92	n/a	n/a
110.662	n/a	55331	newPage	20	n/a	n/a
118.05	n/a	59025	trialResponse	14	0	0
122.42	n/a	61210	trialResponse	14	1	1
130.828	n/a	65414	trialResponse	14	0	0
142.882	n/a	71441	trialResponse	14	0	0
150.61	n/a	75305	trialResponse	14	0	0
156.802	n/a	78401	trialResponse	14	1	1
166.05	n/a	83025	trialResponse	14	0	0
172.986	n/a	86493	trialResponse	14	1	1
177.828	n/a	88914	trialResponse	14	0	0
182.452	n/a	91226	trialResponse	14	0	0
198.45	n/a	99225	trialResponse	14	0	0
199.74	n/a	99870	trialResponse	14	1	1
203.868	n/a	101934	trialResponse	14	0	0
207.034	n/a	103517	trialResponse	14	1	1
209.94	n/a	104970	trialResponse	14	1	1
211.516	n/a	105758	newPage	20	n/a	n/a
220.682	n/a	110341	trialResponse	14	1	1
225.794	n/a	112897	trialResponse	14	1	1
232.282	n/a	116141	trialResponse	14	0	0
232.302	n/a	116151	newPage	20	n/a	n/a
235.303	n/a	117651.5	boundary	boundary	n/a	n/a
