onset	duration	sample	value	event_code	user_answer	correct_answer
0	n/a	0	break cnt	break cnt	n/a	n/a
33.596	n/a	16798	symbolSearch_start	92	n/a	n/a
36.518	n/a	18259	newPage	20	n/a	n/a
42.532	n/a	21266	trialResponse	14	0	0
48.466	n/a	24233	trialResponse	14	1	1
53.456	n/a	26728	trialResponse	14	0	0
62.168	n/a	31084	trialResponse	14	0	0
68.112	n/a	34056	trialResponse	14	0	0
75.502	n/a	37751	trialResponse	14	1	1
80.952	n/a	40476	trialResponse	14	0	0
87.48	n/a	43740	trialResponse	14	1	1
96.086	n/a	48043	trialResponse	14	0	0
101.574	n/a	50787	trialResponse	14	0	0
107.238	n/a	53619	trialResponse	14	0	0
110.126	n/a	55063	trialResponse	14	1	1
114.734	n/a	57367	trialResponse	14	0	0
118.08	n/a	59040	trialResponse	14	1	1
120.688	n/a	60344	trialResponse	14	1	1
123.12	n/a	61560	newPage	20	n/a	n/a
129.76	n/a	64880	trialResponse	14	1	1
133.616	n/a	66808	trialResponse	14	0	1
139.646	n/a	69823	trialResponse	14	0	0
143.926	n/a	71963	trialResponse	14	1	1
149.344	n/a	74672	trialResponse	14	0	0
160.894	n/a	80447	trialResponse	14	1	1
160.908	n/a	80454	newPage	20	n/a	n/a
165.131	n/a	82565.5	boundary	boundary	n/a	n/a
